Folder: APC_FinalProject/Code/databases

Note: README.md
# APC_FinalProject
XRD/FTIR data processing tool suite. Created by Alex Pirola, Agnes Robang, Shashank Gupta, Arjun Prihar, Jordan Hamel, and Anita Zhang,

File: xrd.csv
2_theta_1,intensity_1,2_theta_2,intensity_2,2_theta_3,intensity_3,material_name,material_formula
164.92,100,29.76,100,155.65,100,Bowieite,"(Rh,Ir,Pt)1.77S3"
162.84,100,41.38,100,138.39,90,Sudburyite,"(Pd,Ni)Sb"
156.34,100,126.66,80,121.00,70,Rhodium,"(Rh,Pt)"
155.65,100,164.92,100,29.76,100,Bowieite,"(Rh,Ir,Pt)1.77S3"
125.36,100,42.57,100,147.66,70,Skaergaardite,CuPd
98.21,100,90.89,75,48.18,63,Nowackiite,Cu6Zn3As4S12
98.21,100,52.00,100,47.57,80,Kalininite,ZnCr2S4
93.56,100,62.58,100,25.23,100,Ustarasite,"Pb(Bi,Sb)6S10"
93.56,100,25.23,100,62.58,100,Ustarasite,"Pb(Bi,Sb)6S10"
92.54,100,44.14,100,9.18,100,Freboldite,CoSe
92.54,100,9.18,100,44.14,100,Freboldite,CoSe
90.04,100,49.32,100,37.92,90,Ferdisilicite,FeSi2
86.90,100,32.90,100,16.28,100,Arsenolamprite,As
86.90,100,16.28,100,32.90,100,Arsenolamprite,As
84.83,100,89.51,80,41.38,80,Chengdeite,Ir3Fe
84.83,100,41.38,80,89.51,80,Chengdeite,Ir3Fe
83.57,100,45.30,90,100.34,70,Gupeiite,Fe3Si
83.22,100,44.83,100,65.18,80,Chromferide,"Fe3Cr1-x (x=0,6)"
82.95,100,40.45,90,46.99,70,Isoferroplatinum,"(Pt,Pd)3(Fe,Cu)"
80.27,100,40.23,100,150.24,90,Tetra-auricupride,AuCu
80.19,100,45.52,100,50.17,90,Fersilicite,FeSi
79.71,100,39.22,100,66.33,90,Rustenburgite,"(Pt,Pd)3Sn"
79.71,100,39.22,100,66.33,90,Atokite,"(Pd,Pt)3Sn"
78.30,100,42.40,100,69.58,60,Osmium,"(Os,Ir)"
72.74,100,41.72,100,60.50,80,Khamrabaevite,"(Ti,V,Fe)C"
72.29,100,19.20,100,5.52,100,Perlialite,K8Tl4Al12Si24O72•20(H2O)
72.29,100,5.52,100,19.20,100,Perlialite,K8Tl4Al12Si24O72•20(H2O)
70.72,100,29.06,100,48.27,80,Maikainite,"Cu20(Fe,Cu)6Mo2Ge6S32"
70.48,100,40.17,90,25.31,90,Baotite,"Ba4(Ti,Nb)8Si4O28Cl"
70.48,100,25.31,90,40.17,90,Baotite,"Ba4(Ti,Nb)8Si4O28Cl"
68.14,100,27.59,100,25.06,100,Julienite,Na2Co++(SCN)4•8(H2O)
68.14,100,25.06,100,27.59,100,Julienite,Na2Co++(SCN)4•8(H2O)
67.92,50,56.29,50,53.31,50,Oxyvanite,V3O5
67.92,50,53.31,50,36.80,50,Oxyvanite,V3O5
67.92,50,53.31,50,56.29,50,Oxyvanite,V3O5
67.53,100,32.53,100,31.03,70,Olkhonskite,"(Cr+++,V+++)2Ti3O9"
67.42,100,20.79,100,41.19,90,Jeremejevite,"Al6B5O15(F,OH)3"
67.31,100,37.28,100,8.18,100,Glucine,CaBe4(PO4)2(OH)4•0.5(H2O)
67.31,100,8.18,100,37.28,100,Glucine,CaBe4(PO4)2(OH)4•0.5(H2O)
67.25,100,37.60,87,33.43,71,Zincostaurolite,"[ ]4Zn4Al16(Al,[ ])2Si8O40[O6,(OH)2]"
66.76,100,62.26,100,36.04,50,Leadamalgam,HgPb2
65.18,100,56.78,100,29.86,100,Augite,"(Ca,Na)(Mg,Fe,Al,Ti)(Si,Al)2O6"
65.18,100,29.86,100,56.78,100,Augite,"(Ca,Na)(Mg,Fe,Al,Ti)(Si,Al)2O6"
65.03,100,58.27,100,31.36,100,Batisivite,"(Ti,V,Cr)14Ba[Si2O7]O22"
65.03,100,31.36,100,58.27,100,Batisivite,"(Ti,V,Cr)14Ba[Si2O7]O22"
64.68,100,42.19,100,40.04,90,Mathiasite,"(K,Ca,Sr)(Ti,Cr,Fe,Mg)21O38"
64.68,90,31.47,90,54.23,85,Romanite,"(Fe++,U,Pb)2(Ti,Fe+++)O4"
64.18,100,36.19,100,44.30,90,Bityite,CaLiAl2(AlBeSi2)O10(OH)2
62.58,100,93.56,100,25.23,100,Ustarasite,"Pb(Bi,Sb)6S10"
62.49,100,9.04,100,28.13,100,Brammallite,"(Na,H3O)(Al,Mg,Fe)2(Si,Al)4O10[(OH)2,(H2O)]"
62.49,100,28.13,100,9.04,100,Brammallite,"(Na,H3O)(Al,Mg,Fe)2(Si,Al)4O10[(OH)2,(H2O)]"
62.44,100,44.14,100,41.99,100,Niggliite,PtSn
62.44,100,41.99,100,44.14,100,Niggliite,PtSn
62.40,100,57.83,100,30.81,90,Shuiskite,"Ca2(Mg,Al)(Cr,Al)2(SiO4)(Si2O7)(OH)2•(H2O)"
62.26,100,66.76,100,36.04,50,Leadamalgam,HgPb2
62.07,100,30.59,80,10.65,60,Chrysocolla,"(Cu,Al)2H2Si2O5(OH)4•n(H2O)"
62.03,100,79.55,90,31.59,70,Luanheite,Ag3Hg
61.66,100,34.85,100,36.54,70,Preiswerkite,NaMg2Al3Si2O10(OH)2
61.52,100,36.12,100,62.58,90,Manganoneptunite,"KNa2Li(Mn,Fe++)2Ti2Si8O24"
61.43,100,29.55,100,50.88,70,Calciotantite,"Ca(Ta,Nb)4O11"
61.30,100,34.47,90,17.04,85,Takeuchiite,Mg2Mn+++O2(BO3)
61.07,100,41.72,100,27.95,100,Babefphite,"BaBe(PO4)(F,O)"
61.07,100,27.95,100,41.72,100,Babefphite,"BaBe(PO4)(F,O)"
60.94,100,34.47,100,19.62,80,Chromphyllite,"(K,Ba)(Cr,Al)2[AlSi3O10](OH,F)2"
60.90,100,19.45,100,5.73,100,Nontronite,"Na0.3Fe+++2(Si,Al)4O10(OH)2•n(H2O)"
60.90,100,5.73,100,19.45,100,Nontronite,"Na0.3Fe+++2(Si,Al)4O10(OH)2•n(H2O)"
60.81,100,37.28,100,26.51,90,Shirokshinite,K(NaMg2)Si4O10F2
60.46,-,34.33,-,22.72,-,Kurumsakite,"(Zn,Ni,Cu)8Al8V2Si5O35•27(H2O) (?)"
60.46,100,19.36,100,5.59,80,Hectorite,"Na0,3(Mg,Li)3Si4O10(OH)2"
60.07,100,50.55,100,30.38,100,Tazheranite,CaTiZr2O8
60.07,100,30.38,100,50.55,100,Tazheranite,CaTiZr2O8
60.02,100,38.27,60,33.67,60,Mcgovernite,Mn9Mg4Zn2As2Si2O17(OH)14
60.02,100,34.74,100,31.03,60,Majorite,"Mg3(Fe,Al,Si)2(SiO4)3"
60.02,100,34.74,100,31.03,60,Pyrope,Mg3Al2(SiO4)3
60.02,100,33.54,100,5.73,100,Sauconite,"Na0,3Zn3(Si,Al)4O10(OH)2•4(H2O)"
60.02,100,24.78,100,20.35,100,Neotocite,"(Mn,Fe++)SiO3•(H2O) (?)"
60.02,100,20.35,100,24.78,100,Neotocite,"(Mn,Fe++)SiO3•(H2O) (?)"
60.02,100,5.73,100,33.54,100,Sauconite,"Na0,3Zn3(Si,Al)4O10(OH)2•4(H2O)"
60.02,100,33.67,60,38.27,60,Mcgovernite,Mn9Mg4Zn2As2Si2O17(OH)14
59.85,100,35.08,100,29.84,60,Glagolevite,"NaMg6[Si3AlO10](OH,O)8•H2O"
59.85,100,29.84,100,34.51,60,Glagolevite,"NaMg6[Si3AlO10](OH,O)8•H2O"
59.68,100,50.28,100,30.38,100,Lewisite,"(Ca,Fe++,Na)2(Sb,Ti)2O7"
59.68,100,30.38,100,50.28,100,Lewisite,"(Ca,Fe++,Na)2(Sb,Ti)2O7"
59.60,100,35.57,100,50.52,92,Sabelliite,"Cu2Zn(As,Sb)O4(OH)3"
59.51,100,50.14,100,30.27,100,Uranmicrolite,"(U,Ca)2(Ta,Nb)2O6(OH)"
59.51,100,30.27,100,50.14,100,Uranmicrolite,"(U,Ca)2(Ta,Nb)2O6(OH)"
58.60,100,34.20,100,30.59,90,Calderite,"(Mn++,Ca)3(Fe+++,Al)2(SiO4)3"
58.27,100,65.03,100,31.36,100,Batisivite,"(Ti,V,Cr)14Ba[Si2O7]O22"
58.07,100,49.50,100,29.36,100,Cesstibtantite,"(Cs,Na)SbTa4O12"
58.07,100,29.36,100,49.50,100,Cesstibtantite,"(Cs,Na)SbTa4O12"
57.95,100,50.67,100,42.40,100,Lindsleyite,"(Ba,Sr)(Ti,Cr,Fe,Mg)21O38"
57.95,100,42.40,100,50.67,100,Lindsleyite,"(Ba,Sr)(Ti,Cr,Fe,Mg)21O38"
57.83,100,62.40,100,30.81,90,Shuiskite,"Ca2(Mg,Al)(Cr,Al)2(SiO4)(Si2O7)(OH)2•(H2O)"
57.32,-,30.80,-,26.08,-,Dessauite,"(Sr,Pb)(Y,U)(Ti,Fe+++)20O38"
57.21,100,28.23,100,34.02,80,Cobaltaustinite,CaCo(AsO4)(OH)
57.17,100,35.60,100,30.27,100,Maghemite,gamma-Fe+++2O3
57.17,100,30.27,100,35.60,100,Maghemite,gamma-Fe+++2O3
56.86,100,48.57,100,33.86,100,Zavaritskite,BiOF
56.86,100,33.86,100,48.57,100,Zavaritskite,BiOF
56.78,100,65.18,100,29.86,100,Augite,"(Ca,Na)(Mg,Fe,Al,Ti)(Si,Al)2O6"
56.78,100,33.03,100,29.45,80,Hibschite,Ca3Al2(SiO4)3-x(OH)4x(x=0.2-1.5)
56.78,100,30.27,100,42.19,100,Bismutite,Bi2(CO3)O2
56.78,100,65.18,100,29.86,100,Augite,"(Ca,Na)(Mg,Fe,Al,Ti)(Si,Al)2O6"
56.59,100,42.19,100,42.99,60,Pseudosinhalite,Mg2Al3B2O9(OH)
56.44,100,33.68,100,16.71,100,Murdochite,"PbCu6O8-x(Cl,Br)2x"
56.44,100,16.71,100,33.68,100,Murdochite,"PbCu6O8-x(Cl,Br)2x"
56.36,-,45.30,-,31.58,-,Hapkeite,Fe2Si
56.29,50,67.92,50,53.31,50,Oxyvanite,V3O5
56.29,100,33.04,85,37.07,65,Pyrite,FeS2
56.21,100,26.91,100,11.95,100,Akaganeite,"Fe+++(O,OH,Cl)"
56.21,100,22.21,98,38.61,69,Nsutite,(Mn++++1-x)(Mn++x)(O2-2x)(OH2x) where x = 0.06-0.07
56.21,100,11.95,100,26.91,100,Akaganeite,"Fe+++(O,OH,Cl)"
56.03,100,67.31,95,31.47,85,Simpsonite,"Al4(Ta,Nb)3O13(OH)"
55.66,-,41.99,-,36.65,-,Akhtenskite,Mn++++O2
55.04,100,35.32,90,32.05,80,Kimzeyite,"Ca3(Zr,Ti)2(Si,Al,Fe+++)3O12"
54.94,100,65.70,60,41.78,60,Kleberite,FeTi6O13•4(H2O) (?)
54.94,100,33.54,97,24.50,96,Eskolaite,Cr2O3
54.94,100,41.78,60,65.70,60,Kleberite,FeTi6O13•4(H2O) (?)
54.86,100,47.83,100,36.80,100,Malyshevite,PdCuBiS3
54.86,100,36.80,100,23.58,100,Malyshevite,PdCuBiS3
54.86,100,36.80,100,47.83,100,Malyshevite,PdCuBiS3
54.79,100,38.10,90,31.36,90,Polydymite,NiNi2S4
54.79,100,31.36,90,38.10,90,Polydymite,NiNi2S4
54.58,100,49.79,60,31.14,50,Fletcherite,"Cu(Ni,Co)2S4"
54.58,100,34.60,100,32.29,80,Cobaltite,CoAsS
54.58,100,32.05,96,46.03,52,Bravoite,"(Fe,Ni,Co)S2"
54.48,100,34.74,100,31.70,90,Yafsoanite,Ca3Te2Zn3O12
54.37,100,36.18,80,41.32,70,Pseudorutile,Fe+++2Ti3O9
54.30,100,61.30,60,33.50,60,Schallerite,Mn++16[As+++O2OH][Si12O30](OH)14
54.30,100,33.50,60,61.30,60,Schallerite,Mn++16[As+++O2OH][Si12O30](OH)14
54.23,100,53.89,100,64.93,90,Davidite-(Ce),"(Ce,La)(Y,U)(Ti,Fe+++)20O38"
54.23,100,27.77,80,36.19,60,Belyankinite,"Ca1-2(Ti,Zr,Nb)5O12•9(H2O) (?)"
54.16,40,36.19,30,27.77,20,Manganbelyankinite,"(Mn,Ca)(Ti,Nb)5O12•9(H2O)"
54.16,40,27.77,30,30.92,20,Manganbelyankinite,"(Mn,Ca)(Ti,Nb)5O12•9(H2O)"
54.09,100,27.35,80,29.91,70,Yttrobetafite-(Y),"(Y,U,Ce)2(Ti,Nb,Ta)2O6(OH)"
54.06,100,27.42,80,31.82,70,Laurite,RuS2
53.89,100,54.23,100,64.93,90,Davidite-(Ce),"(Ce,La)(Y,U)(Ti,Fe+++)20O38"
53.78,100,34.76,90,33.06,88,Tistarite,Ti2O3
53.65,100,27.16,100,35.60,90,Struverite,"(Ti,Ta,Fe+++)O2"
53.55,100,23.84,90,33.04,70,Natanite,Fe++Sn++++(OH)6
53.44,100,45.07,100,33.28,90,Maucherite,Ni11As8
53.44,100,40.15,88,32.56,65,IMA2008-060,Mg2(BO3)(OH)
53.31,50,56.29,50,67.92,50,Oxyvanite,V3O5
53.21,100,43.25,90,30.59,50,Gagarinite-(Y),"NaCaY(F,Cl)6"
53.21,100,36.56,100,20.98,100,Hisingerite,Fe+++2Si2O5(OH)4•2(H2O)
53.21,100,27.33,90,35.16,80,Ordonezite,ZnSb2O6
53.21,100,30.59,90,29.76,50,Gagarinite-(Y),"NaCaY(F,Cl)6"
53.21,100,20.98,100,36.56,100,Hisingerite,Fe+++2Si2O5(OH)4•2(H2O)
52.55,100,35.02,80,26.75,80,Tapiolite,"(Fe,Mn)(Ta,Nb)2O6"
52.55,100,35.02,80,26.75,80,Tapiolite-(Fe),"(Fe++,Mn++)(Ta,Nb)2O6"
52.55,100,31.14,100,26.91,100,Hollingworthite,"(Rh,Pt,Pd)AsS"
52.55,100,31.14,100,26.83,100,Irarsite,"(Ir,Ru,Rh,Pt)AsS"
52.55,100,24.03,70,17.65,70,Clinohumite,"(Mg,Fe++)9(SiO4)4(F,OH)2"
52.55,100,17.65,70,24.03,70,Clinohumite,"(Mg,Fe++)9(SiO4)4(F,OH)2"
52.55,100,26.83,100,31.14,100,Irarsite,"(Ir,Ru,Rh,Pt)AsS"
52.55,100,26.91,100,31.14,100,Hollingworthite,"(Rh,Pt,Pd)AsS"
52.55,100,26.75,80,35.02,80,Tapiolite-(Fe),"(Fe++,Mn++)(Ta,Nb)2O6"
52.55,100,26.75,80,35.02,80,Tapiolite,"(Fe,Mn)(Ta,Nb)2O6"
52.45,100,31.15,100,33.78,70,Sonolite,"Mn9(SiO4)4(OH,F)2"
52.42,90,34.33,80,27.00,70,Bezsmertnovite,"Au4Cu(Te,Pb)"
52.42,80,38.78,80,50.95,80,Felbertalite,Cu2Pb6Bi8S19
52.36,100,30.85,90,26.63,80,Platarsite,"(Pt,Rh,Ru)AsS"
52.23,100,47.83,70,29.96,60,Malanite,"Cu(Pt,Ir)2S4"
52.23,100,34.47,80,26.75,80,Varlamoffite,"(Sn,Fe)(O,OH)2"
52.23,100,31.36,100,36.96,70,Gehlenite,Ca2Al(AlSi)O7
52.23,100,26.75,80,34.47,80,Varlamoffite,"(Sn,Fe)(O,OH)2"
52.07,100,49.15,90,59.64,80,Polkanovite,Rh12As7
52.07,100,36.19,100,29.76,80,Trustedtite,Ni3Se4
52.00,100,98.21,100,47.57,80,Kalininite,ZnCr2S4
51.97,100,29.76,100,99.53,90,Cuprorhodsite,CuRh2S4
51.91,100,29.76,100,36.06,90,Cuproiridsite,CuIr2S4
51.81,100,29.96,100,36.51,90,Konderite,"PbCu3(Rh,Pt,Ir)8S16"
51.81,100,29.67,100,47.36,80,Cobaltpentlandite,Co9S8
51.75,100,31.36,80,27.51,60,Roshchinite,"Ag19Pb10Sb51S96 or Pb(Ag,Cu)2(Sb,As)5S10"
51.75,100,29.76,80,15.26,80,Xingzhongite,"(Pb,Cu,Fe)(Ir,Pt,Rh)2S4"
51.75,100,15.26,80,29.76,80,Xingzhongite,"(Pb,Cu,Fe)(Ir,Pt,Rh)2S4"
51.72,100,33.57,100,28.78,100,Yftisite-(Y),"(Y,Dy,Er)4(Ti,Sn)O(SiO4)2(F,OH)6"
51.72,100,28.78,100,33.57,100,Yftisite-(Y),"(Y,Dy,Er)4(Ti,Sn)O(SiO4)2(F,OH)6"
51.66,100,29.65,100,35.89,80,Florensovite,Cu(Cr1.5Sb0.5)S4
51.63,100,35.88,90,30.96,70,Tyrrellite,"(Cu,Co,Ni)3Se4"
51.59,100,29.55,80,35.74,60,Daubreelite,Fe++Cr2S4
51.47,100,29.55,90,40.23,90,Miassite,Rh17S15
51.47,100,40.23,90,29.55,90,Miassite,Rh17S15
51.44,100,29.45,80,47.02,50,Pentlandite,"(Fe,Ni)9S8"
51.41,100,10.16,100,29.06,90,Vozhminite,"(Ni,Co)4(As,Sb)S2"
51.31,100,30.92,90,30.27,90,Weberite,Na2MgAlF7
51.31,100,30.27,90,30.92,90,Weberite,Na2MgAlF7
51.22,100,38.58,80,28.76,80,Welinite-III,"Mn++6(W++++++,Mg)2Si2(O,OH)14"
51.22,100,38.58,80,28.76,80,Welinite-VIII,"(Mn++,Mg)3(W++++++,Mn+++)1-x(SiO4)(O,OH)3 (x=1/3)"
51.22,100,28.76,80,38.58,80,Welinite-III,"Mn++6(W++++++,Mg)2Si2(O,OH)14"
51.22,100,28.76,80,38.58,80,Welinite-VIII,"(Mn++,Mg)3(W++++++,Mn+++)1-x(SiO4)(O,OH)3 (x=1/3)"
51.22,100,26.24,89,35.70,79,Manganhumite,"(Mn,Mg)7(SiO4)3(OH)2"
50.95,80,38.78,80,52.42,80,Felbertalite,Cu2Pb6Bi8S19
50.95,80,52.42,80,44.58,80,Felbertalite,Cu2Pb6Bi8S19
50.95,80,52.42,80,38.78,80,Felbertalite,Cu2Pb6Bi8S19
50.79,100,35.14,80,31.10,80,Ribbeite,"(Mn++,Mg)5(SiO4)2(OH)2"
50.79,100,31.10,80,35.14,80,Ribbeite,"(Mn++,Mg)5(SiO4)2(OH)2"
50.76,100,71.09,80,40.57,80,Zoubekite,AgPb4Sb4S10
50.76,100,40.57,80,71.09,80,Zoubekite,AgPb4Sb4S10
50.73,100,45.40,80,25.86,20,Ertixiite,Na2Si4O9
50.70,100,31.25,80,34.49,60,Alleghanyite,Mn5(SiO4)2(OH)2
50.67,100,51.44,90,52.39,80,Vincentite,"(Pd,Pt)3(As,Sb,Te)"
50.67,100,44.83,100,33.15,100,Wilkmanite,Ni3Se4
50.67,100,52.39,90,51.97,80,Vincentite,"(Pd,Pt)3(As,Sb,Te)"
50.67,100,33.15,100,44.83,100,Wilkmanite,Ni3Se4
50.67,100,57.95,100,42.40,100,Lindsleyite,"(Ba,Sr)(Ti,Cr,Fe,Mg)21O38"
50.64,100,84.28,70,29.96,60,Sperrylite,PtAs2
50.64,100,30.32,100,60.15,90,Calzirtite,CaZr3TiO9
50.55,100,30.89,100,23.99,60,Nordenskioldine,CaSnB2O6
50.55,100,60.07,100,30.38,100,Tazheranite,CaTiZr2O8
50.49,100,35.06,100,31.15,78,Jerrygibbsite,"(Mn,Zn)9(SiO4)4(OH)2"
50.49,100,31.06,90,33.36,80,Leucophoenicite,Mn7(SiO4)3(OH)2
50.37,100,27.25,100,28.22,90,Nasonite,Pb6Ca4Si6O21Cl2
50.34,100,33.88,100,25.29,100,Chernovite-(Y),YAsO4
50.34,100,25.29,100,33.88,100,Chernovite-(Y),YAsO4
50.28,100,84.47,90,29.86,90,Tolovkite,IrSbS
50.28,100,59.68,100,30.38,100,Lewisite,"(Ca,Fe++,Na)2(Sb,Ti)2O7"
50.28,100,29.86,90,84.47,90,Tolovkite,IrSbS
50.14,100,28.59,80,21.29,80,Tungusite,[Ca14(OH)8](Si8020)(Si8020)2[Fe++9(OH)14]
50.14,100,21.29,80,28.59,80,Tungusite,[Ca14(OH)8](Si8020)(Si8020)2[Fe++9(OH)14]
50.14,100,59.51,100,30.27,100,Uranmicrolite,"(U,Ca)2(Ta,Nb)2O6(OH)"
50.11,100,40.23,100,28.13,100,Argentite,Ag2S
50.11,100,28.13,100,40.23,100,Argentite,Ag2S
50.11,70,18.70,70,40.04,70,Fullerite,C60
50.08,100,25.84,89,45.59,82,Rambergite,MnS
49.84,100,29.91,70,37.90,60,Djerfisherite,"K6Na(Fe,Cu,Ni)25S26Cl"
49.79,100,31.82,100,28.87,100,Plombierite,Ca5H2Si6O18•6H2O
49.79,100,30.92,90,55.29,80,Heazlewoodite,Ni3S2
49.79,100,28.87,100,31.82,100,Plombierite,Ca5H2Si6O18•6H2O
49.73,100,30.48,90,28.97,80,Betekhtinite,"Cu10(Fe,Pb)S6"
49.67,100,41.13,100,27.33,90,Chukhrovite-(Y),"Ca3(Y,Ce)Al2(SO4)F13•10(H2O)"
49.64,100,37.80,90,29.80,90,Owensite,"(Ba,Pb)6(Cu,Fe,Ni)25S27"
49.64,100,29.80,90,37.80,90,Owensite,"(Ba,Pb)6(Cu,Fe,Ni)25S27"
49.55,100,82.18,95,112.02,90,Kalungaite,PdAsSe
49.53,100,11.53,100,38.44,90,Chlormagaluminite,"(Mg,Fe++)4Al2(OH)12(Cl2,CO3)•2(H2O)"
49.50,100,58.07,100,29.36,100,Cesstibtantite,"(Cs,Na)SbTa4O12"
49.44,100,33.97,90,34.90,80,Zirsinalite,"Na6(Ca,Mn,Fe++)Zr[Si6O18]"
49.38,100,29.16,80,48.13,60,Luobusaite,Fe0.83Si2
49.32,100,90.04,100,37.92,90,Ferdisilicite,FeSi2
49.24,100,28.87,80,19.28,80,Caledonite,Pb5Cu2(CO3)(SO4)3(OH)6
49.24,100,19.28,80,28.87,80,Caledonite,Pb5Cu2(CO3)(SO4)3(OH)6
49.21,100,34.06,80,33.28,80,Glaucochroite,CaMnSiO4
49.21,100,33.28,80,34.06,80,Glaucochroite,CaMnSiO4
49.10,100,31.62,100,29.61,100,Saryarkite-(Y),"Ca(Y,Th)Al5(SiO4)2(PO4,SO4)2(OH)7•6(H2O)"
49.10,100,29.61,100,31.62,100,Saryarkite-(Y),"Ca(Y,Th)Al5(SiO4)2(PO4,SO4)2(OH)7•6(H2O)"
49.04,100,31.94,100,25.43,100,Plattnerite,PbO2
49.04,100,25.43,100,31.94,100,Plattnerite,PbO2
48.99,100,28.13,100,44.88,40,Argentopentlandite,"Ag(Fe,Ni)8S8"
48.93,100,32.53,70,35.74,60,Changchengite,IrBiS
48.73,100,57.83,99,33.90,65,Plumbomicrolite,"(Pb,Ca,U)2Ta2O6(OH)"
48.73,100,25.84,100,46.03,90,Calciborite,CaB2O4
48.65,100,29.36,100,57.95,50,Arsenosulvanite,"Cu3(As,V)S4"
48.62,100,46.18,90,37.65,90,Djurleite,Cu31S16
48.62,100,37.65,90,46.18,90,Djurleite,Cu31S16
48.57,100,56.86,100,33.86,100,Zavaritskite,BiOF
48.54,100,63.15,69,38.02,69,Brizziite-III,NaSb+++++O3
48.54,100,63.15,69,38.02,69,Brizziite-VII,NaSb+++++O3
48.54,100,38.02,69,63.15,69,Brizziite-VII,NaSb+++++O3
48.54,100,38.02,69,63.15,69,Brizziite-III,NaSb+++++O3
48.51,100,30.48,80,50.31,70,Luberoite,Pt5Se4
48.51,100,27.87,100,44.35,81,Palladseite,Pd17Se15
48.46,100,46.31,90,45.35,80,Novakite,"(Cu,Ag)21As10"
48.37,100,45.91,70,37.39,70,Chalcocite,Cu2S
48.37,100,37.39,70,45.91,70,Chalcocite,Cu2S
48.21,100,33.54,100,11.68,100,Borcarite,Ca4MgB4O6(OH)6(CO3)2
48.21,100,11.68,100,33.54,100,Borcarite,Ca4MgB4O6(OH)6(CO3)2
48.18,100,18.10,100,38.40,88,Zincalstibite,Zn2AlSb(OH)12
48.10,100,49.79,90,45.30,90,Synchysite-(Y),CaY(CO3)2F
48.10,100,27.16,90,35.31,60,Eglestonite,Hg6Cl3O(OH) (?)
48.10,100,24.03,80,28.04,60,Gerasimovskite,"(Mn,Ca)(Nb,Ti)5O12•9(H2O) (?)"
48.10,100,45.30,90,49.79,90,Synchysite-(Y),CaY(CO3)2F
48.05,100,45.79,100,28.97,100,Hypercinnabar,HgS
48.05,100,23.45,100,48.65,80,Osarsite,"(Os,Ru)AsS"
48.05,100,28.97,100,45.79,100,Hypercinnabar,HgS
47.86,100,29.15,55,32.33,35,Yarrowite,Cu9S8
47.83,100,35.89,100,34.47,100,Hastite,CoSe2
47.83,100,34.47,100,35.89,100,Hastite,CoSe2
47.83,100,54.86,100,36.80,100,Malyshevite,PdCuBiS3
47.78,100,26.71,80,30.77,75,Reinhardbraunsite,"Ca5(SiO4)2(OH,F)2"
47.73,100,55.33,63,29.41,62,Kumtyubeite,Ca5(SiO4)2F2
47.73,100,28.68,80,56.59,40,Chatkalite,Cu6Fe++Sn2S8
47.57,100,40.78,100,19.62,100,Hongshiite,PtCu
47.57,100,32.80,74,29.35,65,Chegemite,Ca7(SiO4)3(OH)2
47.57,100,29.00,85,32.21,30,Spionkopite,Cu1.4S
47.57,100,19.62,100,40.78,100,Hongshiite,PtCu
47.44,100,34.06,100,33.54,80,Omeiite,"(Os,Ru)As2"
47.41,100,38.96,100,44.21,99,Ekaterinite,"Ca2B4O7(Cl,OH)2•2(H2O)"
47.36,100,45.86,100,42.82,40,Orcelite,Ni5-xAs2 (x=0.23)
47.36,100,41.50,100,26.75,100,Genthelvite,Zn4Be3(SiO4)3S
47.36,100,33.03,50,23.20,35,Neighborite,NaMgF3
47.36,100,26.75,100,41.50,100,Genthelvite,Zn4Be3(SiO4)3S
47.30,100,89.41,90,61.75,90,Anduoite,"(Ru,Os)As2"
47.30,100,61.75,90,89.41,90,Anduoite,"(Ru,Os)As2"
47.20,100,45.86,100,41.99,65,Perryite,"(Ni,Fe)8(Si,P)3"
47.17,100,28.35,90,27.15,90,Geffroyite,"(Ag,Cu,Fe)9(Se,S)8"
47.17,100,27.15,90,28.35,90,Geffroyite,"(Ag,Cu,Fe)9(Se,S)8"
[...]
6.89,100,34.87,70,20.69,60,Adamsite-(Y),NaY(CO3)2•6(H2O)
6.89,100,11.36,80,14.00,40,Walkerite,"Ca16(Mg,Li,[ ])2[B13O17(OH)12]4Cl6•28(H2O)"
6.85,100,29.76,50,20.03,30,Walentaite,"(Ca,Mn++,Fe++)Fe+++3(AsO4)(PO4)3(PO3OH)"
6.85,100,28.14,70,11.54,50,Apachite,Cu9Si10O29•11(H2O)
6.85,100,20.45,18,19.67,7,Loughlinite,Na2Mg3Si6O16•8(H2O)
6.82,100,13.61,23,20.45,15,Gordaite,NaZn(SO4)(OH)6Cl•6(H2O)
6.81,100,61.43,90,19.58,90,Swinefordite,"(Li,Ca0.5,Na)0.72(Li,Al,Mg)2.66(Si,Al)4O10(OH,F)2•2(H2O)"
6.81,100,19.58,90,61.43,90,Swinefordite,"(Li,Ca0.5,Na)0.72(Li,Al,Mg)2.66(Si,Al)4O10(OH,F)2•2(H2O)"
6.81,100,20.54,50,28.47,50,Thomasclarkite-(Y),"(Na,Ce)(Y,REE)(HCO3)(OH)3•4(H2O)"
6.81,100,28.47,50,20.54,50,Thomasclarkite-(Y),"(Na,Ce)(Y,REE)(HCO3)(OH)3•4(H2O)"
6.79,100,29.45,45,33.77,30,Jonesite,"Ba2(K,Na)[Ti2(Si5Al)O18•n(H2O)"
6.79,100,11.15,100,15.62,100,Andersonite,Na2Ca(UO2)(CO3)3•6(H2O)
6.79,100,27.37,95,9.61,62,Niveolanite,NaBe(CO3)(OH)•2H2O
6.76,100,16.56,90,23.08,80,Torreyite,"(Mg,Mn)9Zn4(SO4)2(OH)22•8(H2O)"
6.75,100,14.44,80,9.53,80,Roggianite,Ca2[Be(OH)2Al2Si4O13]•<2•5(H2O)
6.75,100,9.53,80,14.44,80,Roggianite,Ca2[Be(OH)2Al2Si4O13]•<2•5(H2O)
6.74,100,35.49,90,33.39,40,Theresemagnanite,"(Co,Zn,Ni)6(SO4)(OH,Cl)10•8(H2O)"
6.70,100,13.45,43,30.08,37,Martinite,"(Na,[ ],Ca)12Ca4(Si,S,B)14B2O38(OH,Cl)2F2•4(H2O)"
6.65,100,28.47,90,32.22,35,Richelsdorfite,Ca2Cu5Sb(AsO4)4Cl(OH)6•6(H2O)
6.64,100,25.43,80,14.20,80,Punkaruaivite,Li{Ti2(OH)2[Si4O11(OH)]}•H2O
6.64,100,14.20,80,25.43,80,Punkaruaivite,Li{Ti2(OH)2[Si4O11(OH)]}•H2O
6.63,100,30.68,90,13.26,76,Shlykovite,KCa[Si4O9(OH)]•3H2O
6.60,100,7.99,25,15.45,23,Angastonite,CaMgAl2(PO4)2(OH)4?7H2O
6.59,100,11.08,80,15.96,60,Aldermanite,Mg5Al12(PO4)8(OH)22•32(H2O)
6.56,100,11.28,90,24.37,80,Claraite,"(Cu,Zn)3(CO3)(OH)4•4(H2O)"
6.55,100,11.36,50,8.05,50,Gilalite,Cu5Si6O17•7(H2O)
6.55,100,8.05,50,11.36,50,Gilalite,Cu5Si6O17•7(H2O)
6.54,100,28.04,80,9.61,60,Picropharmacolite,Ca4Mg(AsO3OH)2(AsO4)2•11(H2O)
6.54,100,7.18,62,14.46,55,Wardsmithite,Ca5MgB24O42•30(H2O)
6.45,100,27.72,50,8.96,40,Maricopaite,"Pb7Ca2(Si,Al)48O100•32(H2O)"
6.45,100,11.05,100,39.31,100,Connellite,Cu19Cl4(SO4)(OH)32•3(H2O)
6.40,100,19.28,90,33.54,70,Molybdophyllite,Pb9Mg9Si9O24(OH)24
6.39,100,26.19,65,31.95,62,Francoanellite,"H6(K,Na)3(Al,Fe+++)5(PO4)8•13(H2O)"
6.35,100,12.11,100,19.71,100,Yakhontovite,"(Ca,K)0.5(Cu,Fe+++,Mg)2Si4O10(OH)2•3(H2O)"
6.35,100,18.28,90,22.31,60,Chessexite,"(K,Na)4Ca2Mg3Al8(SiO4)2(SO4)10(OH)10•40(H2O)"
6.32,100,25.76,70,18.31,70,Lannonite,HCa4Mg2Al4(SO4)8F9•32(H2O)
6.32,100,18.31,70,25.76,70,Lannonite,HCa4Mg2Al4(SO4)8F9•32(H2O)
6.31,100,22.84,80,29.65,80,Guerinite,Ca5(AsO3OH)2(AsO4)2•9(H2O)
6.31,100,12.49,60,25.21,60,Corrensite,"(Ca,Na,K)(Mg,Fe,Al)9(Si,Al)8O20(OH)10•n(H2O)"
6.31,100,29.65,80,22.84,80,Guerinite,Ca5(AsO3OH)2(AsO4)2•9(H2O)
6.31,100,25.21,60,12.49,60,Corrensite,"(Ca,Na,K)(Mg,Fe,Al)9(Si,Al)8O20(OH)10•n(H2O)"
6.31,100,23.99,65,29.75,45,Tobermorite,Ca5Si6O16(OH)2•4(H2O)
6.26,100,32.05,60,27.42,57,Yukonite,Ca7Fe+++11(AsO4)9O10•24.3(H2O)
6.26,100,25.34,100,18.83,70,Borocookeite,"Li(1+3x)Al(4-x)(BSi3)O10(OH,F)8 [x = 0-0.33]"
6.22,100,11.65,100,30.27,66,Rivadavite,Na6MgB24O40•22(H2O)
6.22,100,25.58,60,25.96,60,Bariandite,Al0.6V8O20•9(H2O)
6.22,100,25.96,60,25.58,60,Bariandite,Al0.6V8O20•9(H2O)
6.18,100,29.80,100,13.85,-,Lintisite,Na3LiTi2Si4O14•2(H2O)
6.18,100,19.62,60,8.51,24,Parnauite,Cu9(AsO4)2(SO4)(OH)10•7(H2O)
6.18,100,15.64,100,23.64,100,Faujasite-Ca,"(Ca,Na2,Mg)3.5[Al7Si17O48]•32(H2O)"
6.18,100,15.64,100,23.64,100,Faujasite-Na,"(Na2,Ca,Mg)3.5[Al7Si17O48]•32(H2O)"
6.18,100,15.64,100,23.64,100,Faujasite-Mg,"(Mg,Na2,Ca)3.5[Al7Si17O48]•32(H2O)"
6.15,100,9.32,100,11.98,70,Paramendozavilite,NaAl4Fe+++7(PO4)5(P+++++Mo++++++12O40)(OH)16•56(H2O)
6.13,100,13.78,80,33.67,80,Wiserite,"Mn4B2O5(OH,Cl)4"
6.13,100,33.67,80,13.78,80,Wiserite,"Mn4B2O5(OH,Cl)4"
6.10,100,29.50,40,31.02,20,Manganokukisvumite,Na6MnTi4Si8O28•4(H2O)
6.10,100,31.02,40,13.76,20,Manganokukisvumite,Na6MnTi4Si8O28•4(H2O)
6.09,100,33.37,90,42.34,80,Phosphoinnelite,"Ba4Na3Ti3Si4O14(PO4,SO4)2(O,F)3"
6.09,100,26.00,82,28.37,35,Silhydrite,3SiO2•(H2O)
6.06,100,31.75,40,14.09,40,Bleasdaleite,"(Ca,Fe+++)2Cu5(Bi,Cu)(PO4 )4(H2O,OH,Cl)13"
6.06,100,14.09,40,31.75,40,Bleasdaleite,"(Ca,Fe+++)2Cu5(Bi,Cu)(PO4 )4(H2O,OH,Cl)13"
6.06,100,14.09,40,12.73,40,Bleasdaleite,"(Ca,Fe+++)2Cu5(Bi,Cu)(PO4 )4(H2O,OH,Cl)13"
6.05,100,13.96,70,28.35,60,Juanitaite,"(Cu,Ca,Fe)10Bi(AsO4)4(OH)11•2(H2O)"
6.04,100,11.60,100,25.50,90,Arsenuranospathite,HAl(UO2)4(AsO4)4•40(H2O)
6.03,100,21.93,80,32.89,75,Aerinite,"(Ca,Na)6FeAl(Fe++,Mg)2(Al,Mg)6[Si12O36(OH)12H][(H2O)12(CO3)]"
5.97,100,33.72,30,19.62,30,Ogdensburgite,"Ca2(Zn,Mn)Fe+++4(AsO4)4(OH)6•6(H2O)"
5.97,100,19.62,30,33.72,30,Ogdensburgite,"Ca2(Zn,Mn)Fe+++4(AsO4)4(OH)6•6(H2O)"
5.93,100,15.81,100,27.01,80,Szymanskiite,"Hg+16(Ni,Mg)6(H3O)8(CO3)12•3(H2O)"
5.93,100,11.84,50,33.13,50,Santafeite,"(Mn,Fe,Al,Mg)2(Mn++++,Mn++)2(Ca,Sr,Na)3(VO4,AsO4)4(OH)3•2(H2O)"
5.93,100,33.13,50,11.84,50,Santafeite,"(Mn,Fe,Al,Mg)2(Mn++++,Mn++)2(Ca,Sr,Na)3(VO4,AsO4)4(OH)3•2(H2O)"
5.85,100,60.90,80,33.67,40,Pimelite,Ni3Si4O10(OH)2•4(H2O)
5.85,100,33.67,80,19.45,40,Pimelite,Ni3Si4O10(OH)2•4(H2O)
5.81,100,23.33,35,30.13,35,Cowlesite,CaAl2Si3O10•5-6(H2O)
5.81,100,30.13,35,23.33,35,Cowlesite,CaAl2Si3O10•5-6(H2O)
5.80,100,11.63,100,17.98,100,Uranospathite,Al1-x[ ]x[(UO2)(PO4)]2(H2O)20+3xF1-3x
5.77,100,21.71,70,60.54,60,Zincsilite,Zn3Si4O10(OH)2•4(H2O) (?)
5.73,100,19.45,100,60.90,100,Nontronite,"Na0.3Fe+++2(Si,Al)4O10(OH)2•n(H2O)"
5.73,100,33.54,100,60.02,100,Sauconite,"Na0,3Zn3(Si,Al)4O10(OH)2•4(H2O)"
5.73,100,25.92,80,28.35,50,Magadiite,NaSi7O13(OH)3•4(H2O)
5.72,100,11.22,100,32.98,40,Brianyoungite,"Zn3(CO3,SO4)(OH)4"
5.70,100,11.63,80,23.20,80,Taranakite,K3Al5(HPO4)6(PO4)2•18(H2O)
5.70,100,23.20,80,11.63,80,Taranakite,K3Al5(HPO4)6(PO4)2•18(H2O)
5.70,100,19.58,35,60.99,15,Stevensite,"(Ca0.5,Na)0.33(Mg,Fe++)3Si4O10(OH)2•n(H2O)"
5.70,100,11.48,50,17.04,35,Earlandite,Ca3(C6H5O7)•4(H2O)
5.65,100,28.37,90,25.20,80,Gabrielite,Tl2AgCu2As3S7
5.62,100,30.77,100,27.16,75,Chiavennite,CaMnBe2Si5O13(OH)2•2(H2O)
5.55,100,12.10,70,29.04,60,Shabaite-(Nd),"Ca(Nd,Sm,Y)2(UO2)(CO3)4(OH)2•6(H2O)"
5.52,100,11.19,70,27.00,65,Imogolite,Al2SiO3(OH)4
5.52,100,19.20,100,72.29,100,Perlialite,K8Tl4Al12Si24O72•20(H2O)
5.52,100,30.77,84,14.18,48,Cryptophyllite,K2Ca[Si4O10]•5H2O
5.45,100,21.93,30,16.40,26,Surite,"(Pb,Cu)2-3(CO3)1.5-2(OH,F)0.5-1[(Al,Fe+++)2(Si,Al)4O10(OH)2]•n(H2O)"
5.41,100,5.76,70,11.57,35,Schoderite,Al2(PO4)(VO4)•8(H2O)
5.29,100,32.40,25,10.61,15,Arnhemite,"(K,Na)2Mg2(P2O7)•5(H2O)"
5.26,100,21.13,100,10.53,80,Tlalocite,Cu10Zn6(Te++++O3)(Te++++++O4)2Cl(OH)25•27(H2O)
5.16,100,7.36,80,28.77,60,Ashcroftine-(Ce),"K5Na5(Ce,Ca)12Si28O70(OH)2(CO3)8•8(H2O)"
5.16,100,7.33,80,11.61,60,Ashcroftine-(Y),"K5Na5(Y,Ca)12Si28O70(OH)2(CO3)8•8(H2O)"
5.05,100,10.07,100,27.25,25,Clairite,(NH4)2Fe+++3(SO4)4(OH)3•3(H2O)
5.02,100,26.75,100,10.22,80,Liskeardite,"(Al,Fe+++)3(AsO4)(OH)6•5(H2O)"
4.88,100,29.55,90,33.18,70,Britvinite,"Pb7+xMg4.5[(Si,Al)5O14](BO3)(BO3,AsO4)(CO3)(OH,O)7 ( x < 0.5)"
4.87,100,27.68,80,19.24,80,Zaherite,Al12(SO4)5(OH)26•20H20
4.87,100,19.24,80,27.68,80,Zaherite,Al12(SO4)5(OH)26•20H20
4.81,100,5.58,50,9.12,5,Tschortnerite,"Ca4(Ca,Sr,K,Ba)3Cu3(OH)8[Si12Al12O48]•x(H2O), x>=20"
4.80,100,9.57,100,15.90,70,Copiapite,Fe++Fe+++4(SO4)6(OH)2•20(H2O)
4.71,100,31.25,100,9.85,90,Strashimirite,Cu8(AsO4)4(OH)4•5(H2O)
4.49,100,25.97,85,8.90,50,Kenyaite,Na2Si22O41(OH)8•6(H2O)
4.20,100,34.59,90,23.27,80,Kegelite,Pb8Al4Si8O20(SO4)2(CO3)4(OH)8
4.20,100,24.99,80,10.04,80,Okenite,Ca3[Si6O15]•6(H2O)
4.20,100,10.04,80,24.99,80,Okenite,Ca3[Si6O15]•6(H2O)
4.01,100,8.03,100,27.86,80,Fahleite,Zn5CaFe+++2(AsO4)6•14(H2O)
4.01,100,7.92,70,17.79,50,Barahonaite-(Al),"(Ca,Cu,Na,Fe+++,Al )12Al2(AsO4)8(OH,Cl)x•nH2O"
4.01,100,7.89,70,32.38,30,Barahonaite-(Fe),"(Ca,Cu,Na,Fe+++,Al )12Fe+++2(AsO4)8(OH,Cl)x•nH2O"
4.01,100,28.59,100,8.03,80,Gyrolite,NaCa16Si23AlO60(OH)8•64(H2O)
3.87,100,17.69,90,32.17,70,Attikaite,Ca3Cu2Al2(AsO4)4(OH)4•2H2O
3.82,100,7.42,100,9.71,14,Cacoxenite,"(Fe+++,Al)25(PO4)17O6(OH)12•75(H2O)"
3.82,100,7.64,70,24.96,49,Rontgenite-(Ce),"Ca2(Ce,La)3(CO3)5F3"
3.67,100,14.88,97,12.55,90,Nechelyustovite,"(Ba,Na)2{(Na,Ti,Mn)4[(Ti,Nb)2O2Si4O14](OH,O,F)2}•4.5H2O"
3.66,100,11.00,100,25.88,100,Bornemanite,"BaNa3{(Na,Ti)4[(Ti,Nb)2O2Si4O14](F,OH)2}•PO4"
3.50,100,33.13,90,14.44,70,Znucalite,CaZn11(UO2)(CO3)3(OH)20•4(H2O)
3.46,100,28.13,74,10.42,72,Bykovaite,"BaNa{(Na,Ti)4[(Ti,Nb)2(OH,O)3Si4O14](OH,F)2}•3H2O"
3.15,100,29.78,80,6.26,80,Tyrolite,CaCu5(AsO4)2(CO3)(OH)4•6(H2O)
3.15,100,6.26,80,29.78,80,Tyrolite,CaCu5(AsO4)2(CO3)(OH)4•6(H2O)