Folder: APC_FinalProject/Code/Input

Note: README.md
# APC_FinalProject
XRD/FTIR data processing tool suite. Created by Alex Pirola, Agnes Robang, Shashank Gupta, Arjun Prihar, Jordan Hamel, and Anita Zhang,

File: silicone_rubber_ftir.csv
3992.6,0.004646445
3979.1,0.003737522
3965.6,0.003060183
3952.1,0.002461042
3938.6,0.002128288
3925.1,0.001832404
3911.6,0.001749063
3898.1,0.001914898
3884.6,0.002183094
3871.1,0.001929971
3857.6,0.00181674
3844.1,0.001980375
3830.6,0.002193608
3817.1,0.001968102
3803.6,0.001783503
3790.1,0.001724025
3776.6,0.002095215
3763.1,0.002018292
3749.6,0.002137292
3736.1,0.001930341
3722.6,0.002087665
3709.1,0.002303591
3695.6,0.002157935
3682.1,0.001950628
3668.6,0.002274784
3655.1,0.002285882
3641.6,0.002062548
3628.1,0.002084345
3614.6,0.002067114
3601.1,0.002115573
3587.6,0.002030494
3574.1,0.00183182
3560.6,0.001927136
3547.1,0.002126358
3533.6,0.001900495
3520.1,0.001830848
3506.6,0.001944442
3493.1,0.002158224
3479.6,0.001909688
3466.1,0.001844948
3452.6,0.001902614
3439.1,0.002193608
3425.6,0.001888432
3412.1,0.0018846
3398.6,0.001911315
3385.1,0.002133973
3371.6,0.001956569
3358.1,0.001880482
3344.6,0.001950757
3331,0.002168638
3317.5,0.002027078
3304,0.001856274
3290.5,0.00186635
3277,0.00209311
3263.5,0.002038515
3250,0.001848496
3236.5,0.001835567
3223,0.00202346
3209.5,0.002038169
3196,0.001859433
3182.5,0.001789141
3169,0.001952623
3155.5,0.002108764
3142,0.00193432
3128.5,0.001928789
3115,0.002016573
3101.5,0.002124445
3088,0.001826095
3074.5,0.001781265
3061,0.001903861
3047.5,0.002193608
3034,0.001776749
3020.5,0.001609711
3007,0.002101851
2993.5,0.003570581
2980,0.0127974
2966.5,0.0631113
2953,0.0297148
2939.5,0.006175761
2926,0.002536498
2912.5,0.005874268
2899,0.006523677
2885.5,0.002675155
2872,0.001610745
2858.5,0.00119348
2845,0.001744595
2831.5,0.002265355
2818,0.002521796
2804.5,0.002657695
2791,0.002711169
2777.5,0.002166384
2764,0.00204105
2750.5,0.001761647
2737,0.001729428
2723.5,0.001844847
2710,0.002137581
2696.5,0.001776484
2683,0.001637671
2669.5,0.001830092
2656,0.002193608
2642.5,0.001894647
2629,0.00175741
2615.5,0.001853557
2602,0.002146153
2588.5,0.002202069
2575,0.002358522
2561.5,0.002580873
2548,0.002886398
2534.5,0.002665809
2521,0.00216201
2507.4,0.002657969
2493.9,0.003380959
2480.4,0.002812621
2466.9,0.002553976
2453.4,0.002348242
2439.9,0.002228578
2426.4,0.002099762
2412.9,0.002031787
2399.4,0.001992826
2385.9,0.002191805
2372.4,0.002458906
2358.9,0.002953082
2345.4,0.002340129
2331.9,0.002595612
2318.4,0.002577404
2304.9,0.002050543
2291.4,0.002374042
2277.9,0.002317251
2264.4,0.00220686
2250.9,0.002193608
2237.4,0.002281636
2223.9,0.002482892
2210.4,0.002436817
2196.9,0.002694425
2183.4,0.002881703
2169.9,0.004069265
2156.4,0.002193608
2142.9,0.005124445
2129.4,0.006003094
2115.9,0.007020796
2102.4,0.006803381
2088.9,0.006603994
2075.4,0.006581019
2061.9,0.006253427
2048.4,0.005248469
2034.9,0.002972152
2021.4,0.002193608
2007.9,0.002072049
1994.4,0.003477289
1980.9,0.003596236
1967.4,0.00321511
1953.9,0.004419106
1940.4,0.004799572
1926.9,0.003909463
1913.4,0.003350294
1899.9,0.002904785
1886.4,0.002703486
1872.9,0.002386967
1859.4,0.002152459
1845.9,0.002041797
1832.4,0.001972422
1818.9,0.002074975
1805.4,0.002120535
1791.9,0.002265003
1778.4,0.002202265
1764.9,0.002212929
1751.4,0.002077547
1737.9,0.001788313
1724.4,0.001704681
1710.9,0.001899328
1697.3,0.002286328
1683.8,0.00206841
1670.3,0.00172138
1656.8,0.001876687
1643.3,0.002053236
1629.8,0.002085936
1616.3,0.002600796
1602.8,0.002387536
1589.3,0.002136875
1575.8,0.002070516
1562.3,0.001594036
1548.8,0.001615098
1535.3,0.002193608
1521.8,0.001892991
1508.3,0.00166948
1494.8,0.001477998
1481.3,0.002162118
1467.8,0.001666818
1454.3,0.004005038
1440.8,0.00574155
1427.3,0.005872158
1413.8,0.01828974
1400.3,0.01448236
1386.8,0.004833185
1373.3,0.002843935
1359.8,0.002322382
1346.3,0.001845678
1332.8,0.001208448
1319.3,0.001603535
1305.8,0.002069337
1292.3,0.002822015
1278.8,0.01133737
1265.3,0.1446814
1251.8,0.1777765
1238.3,0.04676861
1224.8,0.04578271
1211.3,0.05102829
1197.8,0.0556215
1184.3,0.06046429
1170.8,0.06686043
1157.3,0.07416855
1143.8,0.083481
1130.3,0.1009794
1116.8,0.1452808
1103.3,0.2473893
1089.8,0.3852958
1076.3,0.4609758
1062.8,0.4717346
1049.3,0.4653231
1035.8,0.4804271
1022.3,0.5808999
1008.8,0.8288275
995.3,0.5406594
981.8,0.2467398
968.3,0.1081347
954.8,0.04380911
941.3,0.01472157
927.8,0.003568809
914.3,0.00205446
900.8,0.003931947
887.3,0.02191412
873.7,0.07562212
860.2,0.08930384
846.7,0.06515002
833.2,0.07459498
819.7,0.2205031
806.2,0.4117501
792.7,0.8201759
779.2,0.8108041
765.7,0.3155774
752.2,0.1683225
738.7,0.08747048
725.2,0.04592379
711.7,0.05797191
698.2,0.09903082
684.7,0.1013111
671.2,0.08161084
657.7,0.07911065
644.2,0.00375855
630.7,0.002167908
617.2,0.000808371
603.7,0.001312395
590.2,0.000971236
576.7,0.002612119
563.2,0.002531448
549.7,0.001834905
536.2,0.001871361
522.7,0.003606277
509.2,0.01868904
495.7,0.06668866
482.2,0.1309192
468.7,0.1708143
455.2,0.1462783
441.7,0.08070844
428.2,0.02056072
414.7,0.008150981
401.2,0.009468512